Folder: project_psi/Carboncapture/XRD data

File: Pt_al2o3_200c.csv
2 theta,Intensity
5.0001,-0.0459004
5.22494,-0.002756731
5.44977,0.110625
5.6746,-0.0217094
5.89944,0.063702
6.12427,0.0665125
6.34911,-0.0202225
6.57394,0.0534972
6.79878,0.0758658
7.02361,0.0434112
7.24845,-0.0242512
7.47328,0.131014
7.69812,0.0127063
7.92295,-0.0406331
8.14779,-0.008171434
8.37262,0.0188217
8.59746,-0.000327799
8.82229,0.085346
9.04713,0.056959
9.27196,-0.04882062
9.4968,0.0127988
9.72163,-0.0463772
9.94647,0.0675439
10.1713,0.110617
10.3961,0.0267751
10.621,0.11338
10.8458,0.0479394
11.0706,0.145238
11.2955,0.0908065
11.5203,0.155163
11.7451,0.0865707
11.97,0.136767
12.1948,0.458528
12.4197,0.232411
12.6445,0.397651
12.8693,0.69036
13.0942,0.699079
13.319,0.687696
13.5438,0.54163
13.7687,0.686226
13.9935,0.689194
14.2183,0.684213
14.4432,0.589687
14.668,0.607005
14.8928,0.578179
15.1177,0.751475
15.3425,0.522726
15.5673,0.602001
15.7922,0.807007
16.017,0.873858
16.2418,0.779982
16.4667,0.768436
16.6915,0.665609
16.9164,0.407264
17.1412,0.39097
17.366,0.420548
17.5909,0.395303
17.8157,0.41072
18.0405,0.881731
18.2654,0.915975
18.4902,0.798173
18.715,0.872075
18.9399,0.976224
19.1647,1.12277
19.3895,1.29783
19.6144,1.14202
19.8392,0.707434
20.064,0.712814
20.2889,0.642537
20.5137,0.130285
20.7385,0.0857783
20.9634,0.06110153
21.1882,-0.002773452
21.4131,0.00352836
21.6379,0.0244514
21.8627,0.0391624
22.0876,0.0471386
22.3124,0.266169
22.5372,0.008345448
22.7621,0.261836
22.9869,0.142071
23.2117,-0.008175473
23.4366,-0.107635
23.6614,0.0784522
23.8862,-0.0767425
24.1111,-0.006303689
24.3359,-0.0246394
24.5607,-0.0873817
24.7856,0.105817
25.0104,0.0619003
25.2352,0.131563
25.4601,-0.077555
25.6849,0.115101
25.9097,-0.002275391
26.1346,0.0128419
26.3594,-0.009028849
26.5843,0.17643
26.8091,0.326163
27.0339,-0.009482993
27.2588,0.268451
27.4836,0.251978
27.7084,0.474085
27.9333,0.622271
28.1581,0.706953
28.3829,0.677785
28.6078,0.671918
28.8326,0.781367
29.0574,0.907174
29.2823,1.11705
29.5071,1.12105
29.7319,1.39142
29.9568,2.22328
30.1816,2.54893
30.4064,3.27635
30.6313,4.8361
30.8561,7.04763
31.081,8.6835
31.3058,8.74198
31.5306,7.99737
31.7555,7.39064
31.9803,6.89749
32.2051,8.0596
32.43,12.2641
32.6548,18.0874
32.8796,11.4357
33.1045,5.97748
33.3293,4.23352
33.5541,3.59793
33.779,3.34328
34.0038,3.44006
34.2286,3.54452
34.4535,3.85283
34.6783,4.43965
34.9031,4.15221
35.128,4.27695
35.3528,4.66111
35.5777,5.16059
35.8025,5.8535
36.0273,8.03326
36.2522,10.4794
36.477,12.7144
36.7018,12.6724
36.9267,11.5252
37.1515,9.65311
37.3763,8.37199
37.6012,7.58813
37.826,7.00986
38.0508,7.24482
38.2757,7.58294
38.5005,8.6718
38.7253,10.3569
38.9502,10.9194
39.175,10.9376
39.3998,11.0832
39.6247,10.6913
39.8495,8.4356
40.0743,7.00354
40.2992,5.29096
40.524,4.05134
40.7489,2.5503
40.9737,2.11249
41.1985,1.43756
41.4234,1.08282
41.6482,0.777411
41.873,0.342531
42.0979,0.161855
42.3227,0.238856
42.5475,0.0145065
42.7724,0.403736
42.9972,0.111642
43.222,0.27089
43.4469,0.25205
43.6717,0.79297
43.8965,1.30858
44.1214,2.52805
44.3462,5.41492
44.571,10.424
44.7959,13.8506
45.0207,14.8264
45.2456,14.5895
45.4704,13.4644
45.6952,10.59
45.9201,8.2928
46.1449,7.78622
46.3697,7.38107
46.5946,7.38637
46.8194,6.52782
47.0442,5.90785
47.2691,6.13237
47.4939,5.75171
47.7187,4.20685
47.9436,2.13495
48.1684,1.11587
48.3932,0.477722
48.6181,0.201421
48.8429,0.168908
49.0677,0.279488
49.2926,0.0105919
49.5174,-0.04791287
49.7423,-0.0308168
49.9671,0.381109
50.1919,0.981267
50.4168,1.43459
50.6416,1.81225
50.8664,1.31565
51.0913,0.755542
51.3161,0.67707
51.5409,0.429192
51.7658,0.0848232
51.9906,0.0137567
52.2154,0.150037
52.4403,0.120733
52.6651,0.18591
52.8899,0.182376
53.1148,0.146587
53.3396,-0.0603436
53.5644,0.172271
53.7893,0.120926
54.0141,-0.12934
54.2389,0.363905
54.4638,0.0243916
54.6886,0.0189434
54.9135,-0.0147865
55.1383,0.120904
55.3631,-0.065589
55.588,0.158372
55.8128,0.134802
56.0376,0.344603
56.2625,0.254789
56.4873,0.354943
56.7121,0.481871
56.937,0.428977
57.1618,0.005286494
57.3866,0.20212
57.6115,-0.008299599
57.8363,-0.0883419
58.0611,0.270505
58.286,0.289806
58.5108,0.681368
58.7356,0.920884
58.9605,0.869466
59.1853,1.52364
59.4102,2.28966
59.635,3.48349
59.8598,4.11903
60.0847,3.92892
60.3095,3.29161
60.5343,2.86859
60.7592,2.62511
60.984,2.35633
61.2088,2.54313
61.4337,2.23241
61.6585,2.47277
61.8833,2.53156
62.1082,3.12061
62.333,3.03851
62.5578,2.49881
62.7827,1.939
63.0075,1.75841
63.2323,1.84938
63.4572,2.17892
63.682,3.31476
63.9069,3.97911
64.1317,3.67196
64.3565,3.54784
64.5814,3.61196
64.8062,3.84347
65.031,4.22155
65.2559,4.90244
65.4807,5.67955
65.7055,6.67441
65.9304,8.67868
66.1552,12.6264
66.38,16.9099
66.6049,19.9598
66.8297,22.3715
67.0545,25.7475
67.2794,26.9801
67.5042,21.8471
67.729,13.7653
67.9539,7.35945
68.1787,4.3832
68.4036,2.26531
68.6284,1.47976
68.8532,0.811261
69.0781,0.160854
69.3029,0.205624
69.5277,0.176474
69.7526,0.151528
69.9774,-0.0276048
69.9978,-0.102739

File: Pt_al2o3_300C.csv
2 theta,Intensity
5.0001,-0.0500771
5.22494,0.0302983
5.44977,0.004096023
5.6746,-0.017894
5.89944,0.0754394
6.12427,0.0249423
6.34911,0.0696018
6.57394,0.0108346
6.79878,0.0257242
7.02361,0.0326733
7.24845,0.0195291
7.47328,-0.0414861
7.69812,0.110044
7.92295,0.0192593
8.14779,0.0099147
8.37262,0.002969456
8.59746,0.0766254
8.82229,0.03122975
9.04713,0.15277
9.27196,0.143587
9.4968,0.0639641
9.72163,0.106609
9.94647,0.021521
10.1713,-0.0211598
10.3961,0.0759812
10.621,0.0543021
10.8458,0.0715575
11.0706,0.00448362
11.2955,0.050997
11.5203,0.188528
11.7451,0.104577
11.97,0.245325
12.1948,0.277437
12.4197,0.322443
12.6445,0.338674
12.8693,0.279257
13.0942,0.423705
13.319,0.386601
13.5438,0.294682
13.7687,0.425725
13.9935,0.290147
14.2183,0.443504
14.4432,0.434406
14.668,0.391326
14.8928,0.345514
15.1177,0.333428
15.3425,0.202291
15.5673,0.231616
15.7922,0.329389
16.017,0.594569
16.2418,0.341392
16.4667,0.212218
16.6915,0.151494
16.9164,-0.0178662
17.1412,0.0392086
17.366,-0.066171
17.5909,0.120856
17.8157,-0.11846
18.0405,0.03706132
18.2654,0.01554446
18.4902,0.192039
18.715,0.37101
18.9399,0.691346
19.1647,0.835339
19.3895,1.04952
19.6144,0.863392
19.8392,0.540855
20.064,0.333642
20.2889,0.18446
20.5137,0.0776851
20.7385,0.126164
20.9634,0.01060114
21.1882,0.0629706
21.4131,0.008441344
21.6379,-0.0262507
21.8627,-0.006383148
22.0876,0.186099
22.3124,-0.002800039
22.5372,0.108588
22.7621,0.100925
22.9869,-0.04427471
23.2117,0.0762104
23.4366,-0.000480998
23.6614,-0.0577619
23.8862,0.001772785
24.1111,0.0251374
24.3359,0.100479
24.5607,-0.003344871
24.7856,0.04287669
25.0104,0.214838
25.2352,-0.01697385
25.4601,0.149523
25.6849,-0.0443502
25.9097,-0.0360949
26.1346,-0.065294
26.3594,0.128469
26.5843,0.0714605
26.8091,0.0871075
27.0339,0.126064
27.2588,0.118886
27.4836,0.126336
27.7084,0.169249
27.9333,0.407347
28.1581,0.46042
28.3829,0.338887
28.6078,0.523649
28.8326,0.648387
29.0574,0.600254
29.2823,0.7889728
29.5071,1.03399
29.7319,1.10439
29.9568,1.39082
30.1816,2.04604
30.4064,3.0579
30.6313,4.73891
30.8561,6.52482
31.081,8.81668
31.3058,8.72734
31.5306,7.61443
31.7555,7.0231
31.9803,6.88042
32.2051,7.87216
32.43,11.7205
32.6548,18.3787
32.8796,11.5567
33.1045,6.35347
33.3293,4.37843
33.5541,3.3694
33.779,3.3073
34.0038,3.18517
34.2286,3.63323
34.4535,4.00042
34.6783,4.81975
34.9031,4.63287
35.128,4.80611
35.3528,4.86377
35.5777,5.31453
35.8025,6.08374
36.0273,8.24952
36.2522,10.5011
36.477,12.5868
36.7018,12.7739
36.9267,12.2812
37.1515,10.0583
37.3763,9.25975
37.6012,7.5644
37.826,7.14235
38.0508,7.07521
38.2757,7.80568
38.5005,8.87023
38.7253,10.2758
38.9502,11.0693
39.175,10.9676
39.3998,11.4119
39.6247,10.8829
39.8495,9.03695
40.0743,6.59626
40.2992,5.01916
40.524,3.37682
40.7489,2.4453
40.9737,1.77667
41.1985,1.47683
41.4234,0.969406
41.6482,0.59987
41.873,0.595658
42.0979,0.173783
42.3227,0.0929257
42.5475,-0.0178777
42.7724,0.202266
42.9972,0.306207
43.222,-0.142721
43.4469,0.287564
43.6717,0.577964
43.8965,1.13994
44.1214,2.61237
44.3462,5.45534
44.571,10.0716
44.7959,13.7581
45.0207,14.8967
45.2456,14.9631
45.4704,13.8688
45.6952,11.1051
45.9201,8.32822
46.1449,7.87329
46.3697,7.80973
46.5946,7.65662
46.8194,7.30461
47.0442,6.06444
47.2691,6.15835
47.4939,5.73043
47.7187,3.9838
47.9436,2.2709
48.1684,1.02402
48.3932,0.588643
48.6181,0.279005
48.8429,0.0586492
49.0677,0.167158
49.2926,0.177449
49.5174,0.0199959
49.7423,-0.0286981
49.9671,0.294001
50.1919,0.851816
50.4168,1.42947
50.6416,1.76654
50.8664,1.53664
51.0913,1.04881
51.3161,0.731851
51.5409,0.469454
51.7658,-0.0352595
51.9906,-0.0729907
52.2154,0.129408
52.4403,0.0634504
52.6651,0.138857
52.8899,0.0952128
53.1148,0.187725
53.3396,-0.06624493
53.5644,0.0517528
53.7893,0.0773586
54.0141,-0.0751149
54.2389,0.01826787
54.4638,-0.0384448
54.6886,-0.165388
54.9135,-0.09365296
55.1383,-0.0923586
55.3631,0.114578
55.588,0.0430131
55.8128,0.0763547
56.0376,0.110436
56.2625,0.214702
56.4873,0.156514
56.7121,0.569552
56.937,0.320136
57.1618,0.17389
57.3866,0.134287
57.6115,0.133619
57.8363,0.0181284
58.0611,-0.0300953
58.286,0.281796
58.5108,0.490261
58.7356,0.716827
58.9605,1.35212
59.1853,1.66003
59.4102,2.43569
59.635,3.58709
59.8598,4.16631
60.0847,4.25149
60.3095,3.51969
60.5343,2.89801
60.7592,2.63992
60.984,2.32701
61.2088,2.4888
61.4337,2.54543
61.6585,2.71911
61.8833,2.81021
62.1082,3.0444
62.333,2.97031
62.5578,2.89001
62.7827,2.18198
63.0075,1.93824
63.2323,2.01814
63.4572,2.57622
63.682,3.4406
63.9069,3.73106
64.1317,3.89206
64.3565,3.53469
64.5814,3.51314
64.8062,3.70587
65.031,4.28996
65.2559,5.2741
65.4807,5.86662
65.7055,7.20293
65.9304,8.5695
66.1552,12.2181
66.38,17.6017
66.6049,19.7587
66.8297,22.3939
67.0545,26.0836
67.2794,27.7775
67.5042,22.8906
67.729,14.3811
67.9539,8.06858
68.1787,4.46165
68.4036,2.72177
68.6284,1.56424
68.8532,0.728619
69.0781,0.541311
69.3029,0.182869
69.5277,0.210584
69.7526,-0.05262836
69.9774,-0.193573
69.9978,-0.0983473

File: Pt_al2o3_400C.csv
2 theta,Intensity
5.0001,-0.0437142
5.22494,0.0580085
5.44977,0.018065
5.6746,-0.0194474
5.89944,0.0635654
6.12427,-0.005437131
6.34911,0.065623
6.57394,0.0626952
6.79878,-0.0645377
7.02361,0.0183113
7.24845,-0.00991052
7.47328,0.052156
7.69812,0.0663065
7.92295,-0.0160703
8.14779,0.0914841
8.37262,0.0509041
8.59746,0.0514698
8.82229,0.0128
9.04713,0.0228004
9.27196,0.0345533
9.4968,0.079065
9.72163,-0.0457652
9.94647,-0.006606637
10.1713,0.117164
10.3961,0.0473374
10.621,0.0572803
10.8458,0.126771
11.0706,0.2368874
11.2955,0.238324
11.5203,0.578997
11.7451,0.718976
11.97,0.989858
12.1948,1.12081
12.4197,1.16392
12.6445,1.57751
12.8693,1.72617
13.0942,2.08733
13.319,2.00648
13.5438,2.31522
13.7687,2.55694
13.9935,2.45213
14.2183,2.41399
14.4432,2.62307
14.668,2.54813
14.8928,2.64228
15.1177,2.83435
15.3425,2.85351
15.5673,2.72579
15.7922,2.91474
16.017,2.87
16.2418,2.9284
16.4667,2.8538
16.6915,2.55074
16.9164,2.48795
17.1412,2.31475
17.366,2.45127
17.5909,2.14231
17.8157,2.1205
18.0405,2.00737
18.2654,1.99563
18.4902,1.86132
18.715,1.96902
18.9399,1.93506
19.1647,2.15006
19.3895,2.36748
19.6144,1.9745
19.8392,1.42943
20.064,1.27741
20.2889,0.808385
20.5137,0.628247
20.7385,0.627623
20.9634,0.369014
21.1882,0.300336
21.4131,0.114297
21.6379,0.350828
21.8627,0.285971
22.0876,0.0672954
22.3124,0.208689
22.5372,0.05737574
22.7621,0.0109237
22.9869,-0.0964902
23.2117,-0.004011184
23.4366,-0.0306288
23.6614,0.0337263
23.8862,0.0670674
24.1111,0.0831606
24.3359,0.0423554
24.5607,0.168912
24.7856,0.132659
25.0104,0.0943899
25.2352,0.285982
25.4601,0.266464
25.6849,0.120904
25.9097,0.232984
26.1346,0.19819
26.3594,0.384577
26.5843,0.547353
26.8091,0.625754
27.0339,0.838532
27.2588,0.883601
27.4836,0.910268
27.7084,1.02444
27.9333,1.2834
28.1581,1.73576
28.3829,1.5534
28.6078,1.73979
28.8326,2.08139
29.0574,2.22751
29.2823,2.38126
29.5071,2.58433
29.7319,3.0485
29.9568,3.39184
30.1816,3.92337
30.4064,5.19519
30.6313,6.28714
30.8561,8.385
31.081,9.81167
31.3058,9.66092
31.5306,8.78343
31.7555,8.61323
31.9803,8.2163
32.2051,8.94506
32.43,13.3933
32.6548,18.4481
32.8796,11.7605
33.1045,7.22643
33.3293,5.25207
33.5541,4.30098
33.779,4.17002
34.0038,4.38525
34.2286,4.78693
34.4535,4.85424
34.6783,5.25731
34.9031,5.22011
35.128,5.43534
35.3528,5.5089
35.5777,5.64913
35.8025,6.34387
36.0273,8.04452
36.2522,9.86739
36.477,12.1371
36.7018,12.5256
36.9267,11.361
37.1515,9.55123
37.3763,8.0998
37.6012,7.2567
37.826,6.40214
38.0508,6.18023
38.2757,7.21247
38.5005,8.32354
38.7253,9.95614
38.9502,10.2544
39.175,10.3085
39.3998,10.6012
39.6247,10.5022
39.8495,8.50456
40.0743,6.46077
40.2992,4.72497
40.524,3.32667
40.7489,2.42212
40.9737,2.145
41.1985,1.53003
41.4234,1.26646
41.6482,0.819546
41.873,0.467083
42.0979,0.53198
42.3227,0.415281
42.5475,0.189902
42.7724,0.218691
42.9972,0.100604
43.222,0.1880744
43.4469,0.434225
43.6717,0.733155
43.8965,1.43556
44.1214,2.66817
44.3462,5.20877
44.571,9.80561
44.7959,12.8893
45.0207,14.1351
45.2456,13.8625
45.4704,12.8076
45.6952,10.1301
45.9201,7.96033
46.1449,7.15058
46.3697,7.40403
46.5946,7.12172
46.8194,6.51892
47.0442,6.05397
47.2691,5.80325
47.4939,5.44386
47.7187,3.87162
47.9436,1.84347
48.1684,0.91672
48.3932,0.200731
48.6181,0.0548805
48.8429,-0.180552
49.0677,0.0556106
49.2926,-0.230271
49.5174,-0.0947677
49.7423,0.173106
49.9671,0.28716
50.1919,1.02691
50.4168,1.38194
50.6416,1.83315
50.8664,1.36665
51.0913,0.838345
51.3161,0.928792
51.5409,0.325489
51.7658,0.110034
51.9906,-0.0630589
52.2154,0.207424
52.4403,0.330355
52.6651,0.111967
52.8899,0.272746
53.1148,-0.197724
53.3396,0.226598
53.5644,0.184111
53.7893,-0.01565652
54.0141,-0.112298
54.2389,0.121996
54.4638,0.155597
54.6886,0.0197534
54.9135,-0.0926862
55.1383,-0.136028
55.3631,0.102576
55.588,0.154374
55.8128,0.0836039
56.0376,0.35207
56.2625,0.121231
56.4873,0.302546
56.7121,0.26407
56.937,0.149899
57.1618,0.25691
57.3866,0.175379
57.6115,0.0858634
57.8363,0.278422
58.0611,0.208052
58.286,0.412682
58.5108,0.8003
58.7356,1.1209
58.9605,1.23908
59.1853,1.43954
59.4102,2.2414
59.635,3.21756
59.8598,4.2222
60.0847,3.61815
60.3095,3.17799
60.5343,2.72812
60.7592,2.18866
60.984,2.37211
61.2088,2.25765
61.4337,2.08486
61.6585,2.4961
61.8833,2.34726
62.1082,2.88142
62.333,2.55342
62.5578,2.29209
62.7827,2.02451
63.0075,1.78193
63.2323,1.96018
63.4572,2.50198
63.682,2.57398
63.9069,3.04078
64.1317,3.44751
64.3565,2.89139
64.5814,2.89499
64.8062,3.24304
65.031,3.82443
65.2559,4.37005
65.4807,5.33824
65.7055,6.31928
65.9304,8.29406
66.1552,11.2123
66.38,16.1554
66.6049,17.8788
66.8297,19.872
67.0545,23.6628
67.2794,25.0359
67.5042,19.8506
67.729,12.4611
67.9539,7.00295
68.1787,3.90309
68.4036,2.11816
68.6284,1.31483
68.8532,1.09553
69.0781,0.375187
69.3029,0.261442
69.5277,0.231725
69.7526,0.009994945
69.9774,-0.142358
69.9978,-0.111517

File: Pt_al2o3_600C.csv
2 theta,Intensity
5.0001,-0.0436797
5.22494,0.0716982
5.44977,-0.017018
5.6746,0.141561
5.89944,0.000558875
6.12427,0.0321992
6.34911,0.102801
6.57394,0.00229466
6.79878,0.0744304
7.02361,0.001581222
7.24845,-0.0163243
7.47328,-0.0508239
7.69812,0.01210792
7.92295,-0.0613461
8.14779,0.0152725
8.37262,0.0527275
8.59746,0.0250853
8.82229,0.0525158
9.04713,-0.028101
9.27196,-0.002781147
9.4968,-0.04313289
9.72163,-0.041051
9.94647,-0.0156326
10.1713,0.0799911
10.3961,0.0525229
10.621,0.0357975
10.8458,0.0800738
11.0706,0.0956032
11.2955,0.0841218
11.5203,0.00743524
11.7451,0.05651563
11.97,0.252196
12.1948,0.367047
12.4197,0.20315
12.6445,0.224049
12.8693,0.250922
13.0942,0.158771
13.319,0.234054
13.5438,0.207673
13.7687,0.143865
13.9935,0.09297624
14.2183,0.0272296
14.4432,0.000444474
14.668,0.0681763
14.8928,0.0134112
15.1177,0.002815921
15.3425,0.108156
15.5673,0.0310387
15.7922,0.2746
16.017,0.446011
16.2418,0.295273
16.4667,0.240788
16.6915,0.100264
16.9164,0.0211988
17.1412,0.0675745
17.366,0.145967
17.5909,0.00616008
17.8157,0.0501723
18.0405,0.0671737
18.2654,0.0415394
18.4902,0.105214
18.715,0.346738
18.9399,0.701877
19.1647,0.977922
19.3895,1.17487
19.6144,0.909048
19.8392,0.539825
20.064,0.315465
20.2889,0.175206
20.5137,0.105158
20.7385,0.0186338
20.9634,0.007555441
21.1882,0.0333793
21.4131,0.120549
21.6379,-0.001583068
21.8627,-0.008365134
22.0876,0.001699426
22.3124,0.005105978
22.5372,0.0891406
22.7621,-0.003141056
22.9869,0.08242758
23.2117,0.094346
23.4366,0.103537
23.6614,-0.0549073
23.8862,0.0504131
24.1111,-0.226186
24.3359,-0.000567585
24.5607,0.0890431
24.7856,0.103032
25.0104,0.234107
25.2352,0.143727
25.4601,0.139183
25.6849,0.0989485
25.9097,-0.08288061
26.1346,0.109321
26.3594,-0.000490177
26.5843,-0.0313813
26.8091,-0.0345827
27.0339,-0.0403602
27.2588,-0.003704036
27.4836,0.212539
27.7084,0.0979509
27.9333,0.08482472
28.1581,0.272118
28.3829,0.300457
28.6078,0.296576
28.8326,0.4896426
29.0574,0.402226
29.2823,0.749605
29.5071,1.1915
29.7319,1.0543
29.9568,1.55502
30.1816,2.46971
30.4064,3.3296
30.6313,5.067
30.8561,7.04127
31.081,9.51458
31.3058,8.69351
31.5306,8.11801
31.7555,7.07451
31.9803,7.13943
32.2051,8.05928
32.43,12.8341
32.6548,18.9256
32.8796,11.155
33.1045,6.14218
33.3293,3.94434
33.5541,3.40698
33.779,3.4763
34.0038,3.39534
34.2286,3.5582
34.4535,3.94753
34.6783,4.30984
34.9031,4.29619
35.128,4.59406
35.3528,4.76771
35.5777,5.36052
35.8025,6.25618
36.0273,8.21338
36.2522,10.5359
36.477,12.0762
36.7018,12.725
36.9267,11.4404
37.1515,9.30252
37.3763,8.16362
37.6012,7.01507
37.826,6.2909
38.0508,6.17861
38.2757,7.01326
38.5005,8.44417
38.7253,10.2109
38.9502,12.027
39.175,14.0557
39.3998,16.8977
39.6247,18.454
39.8495,14.8582
40.0743,9.65214
40.2992,5.78363
40.524,3.86381
40.7489,2.30238
40.9737,1.6827
41.1985,1.15754
41.4234,1.0064
41.6482,0.618187
41.873,0.583169
42.0979,0.291975
42.3227,0.11613
42.5475,0.0725801
42.7724,-0.136143
42.9972,0.185414
43.222,0.424406
43.4469,0.369025
43.6717,0.616495
43.8965,1.08175
44.1214,2.92103
44.3462,5.87566
44.571,10.713
44.7959,13.782
45.0207,14.4073
45.2456,14.9779
45.4704,14.0614
45.6952,12.0814
45.9201,10.9233
46.1449,10.5282
46.3697,10.2258
46.5946,9.09784
46.8194,7.07653
47.0442,6.31988
47.2691,6.189
47.4939,5.93388
47.7187,4.0771
47.9436,2.14817
48.1684,0.959594
48.3932,0.377685
48.6181,0.164597
48.8429,-0.118903
49.0677,0.0948213
49.2926,0.0141477
49.5174,-0.003258802
49.7423,0.329069
49.9671,0.6864739
50.1919,1.17312
50.4168,1.67094
50.6416,1.86398
50.8664,1.54216
51.0913,1.26625
51.3161,0.947702
51.5409,0.765336
51.7658,0.213946
51.9906,0.007072589
52.2154,0.005827459
52.4403,0.128613
52.6651,0.180985
52.8899,0.109125
53.1148,0.0189335
53.3396,0.0996483
53.5644,0.0547619
53.7893,-0.0863289
54.0141,-0.001519548
54.2389,-0.101707
54.4638,-0.0247625
54.6886,0.0234352
54.9135,-0.118125
55.1383,-0.147204
55.3631,0.105733
55.588,-0.0172986
55.8128,0.0444644
56.0376,0.240675
56.2625,0.283139
56.4873,0.296855
56.7121,0.358214
56.937,0.411659
57.1618,0.29226
57.3866,0.0225866
57.6115,0.0470828
57.8363,0.230332
58.0611,0.0837889
58.286,0.32303
58.5108,0.200192
58.7356,0.817703
58.9605,1.04709
59.1853,1.49774
59.4102,2.40922
59.635,3.52111
59.8598,3.9376
60.0847,3.80971
60.3095,2.87183
60.5343,2.73853
60.7592,2.24142
60.984,2.20688
61.2088,2.19394
61.4337,2.42656
61.6585,2.37522
61.8833,2.62152
62.1082,2.71061
62.333,2.64769
62.5578,2.3824
62.7827,2.16476
63.0075,1.85761
63.2323,1.96616
63.4572,2.26297
63.682,2.91645
63.9069,3.56028
64.1317,3.33162
64.3565,3.50997
64.5814,3.13527
64.8062,3.23183
65.031,3.70936
65.2559,4.80397
65.4807,5.81081
65.7055,6.56148
65.9304,8.12888
66.1552,12.0946
66.38,16.9483
66.6049,19.3878
66.8297,21.7135
67.0545,26.3906
67.2794,27.664
67.5042,22.3513
67.729,14.4839
67.9539,7.74745
68.1787,4.14891
68.4036,2.41225
68.6284,1.13816
68.8532,0.941228
69.0781,0.448188
69.3029,0.155568
69.5277,-0.0633692
69.7526,0.029225
69.9774,-0.104844
69.9978,-0.105632

File: Pt_al2o3_raw.csv
2 theta,Intensity
5.0001,-0.0446353
5.22494,-0.005093912
5.44977,0.005839104
5.6746,0.007676363
5.89944,0.104622
6.12427,-0.042538
6.34911,0.0332106
6.57394,0.0506176
6.79878,-0.002469717
7.02361,0.101379
7.24845,0.0377724
7.47328,0.13503
7.69812,-0.0135535
7.92295,-0.109368
8.14779,0.0172136
8.37262,-0.003088507
8.59746,0.0397957
8.82229,-0.0148654
9.04713,0.140331
9.27196,0.03583136
9.4968,0.0414214
9.72163,0.0945726
9.94647,0.0112573
10.1713,0.034531
10.3961,0.005697689
10.621,-0.0296601
10.8458,-0.0174566
11.0706,-0.004422014
11.2955,-0.003027466
11.5203,-0.0183078
11.7451,0.109459
11.97,0.02610695
12.1948,0.120524
12.4197,0.179169
12.6445,0.0735703
12.8693,0.119699
13.0942,0.00158354
13.319,0.128946
13.5438,0.224008
13.7687,0.0749655
13.9935,-0.00568288
14.2183,0.122688
14.4432,0.100704
14.668,0.162739
14.8928,0.131711
15.1177,0.040605
15.3425,0.0769213
15.5673,0.0201739
15.7922,0.227747
16.017,0.312371
16.2418,0.42893
16.4667,0.244092
16.6915,0.0356354
16.9164,-0.0905381
17.1412,0.0391829
17.366,0.0758402
17.5909,0.142654
17.8157,0.279583
18.0405,0.745323
18.2654,1.47737
18.4902,0.619833
18.715,0.53034
18.9399,0.634241
19.1647,0.806537
19.3895,1.12709
19.6144,0.882355
19.8392,0.495945
20.064,0.738695
20.2889,0.546366
20.5137,0.111668
20.7385,0.05439307
20.9634,-0.159494
21.1882,-0.0168607
21.4131,-0.0106934
21.6379,-0.083701
21.8627,0.000227652
22.0876,-0.0193241
22.3124,-0.241315
22.5372,-0.0220804
22.7621,0.0398541
22.9869,0.0531529
23.2117,0.007257227
23.4366,0.04107519
23.6614,-0.008773898
23.8862,-0.0494152
24.1111,-0.0371591
24.3359,-0.0835789
24.5607,0.233535
24.7856,-0.007451537
25.0104,-0.138709
25.2352,0.110929
25.4601,0.0713218
25.6849,0.0680302
25.9097,-0.0571571
26.1346,0.0544531
26.3594,0.155514
26.5843,0.232272
26.8091,0.365272
27.0339,0.108334
27.2588,0.265276
27.4836,0.244085
27.7084,0.326011
27.9333,0.556193
28.1581,0.5822
28.3829,0.313754
28.6078,0.443563
28.8326,0.659129
29.0574,0.5663525
29.2823,0.785026
29.5071,0.874178
29.7319,1.04388
29.9568,1.56149
30.1816,2.27596
30.4064,3.30015
30.6313,4.56461
30.8561,6.45996
31.081,8.57475
31.3058,8.19022
31.5306,7.25777
31.7555,6.68886
31.9803,6.42792
32.2051,7.36037
32.43,11.4689
32.6548,17.5728
32.8796,10.7817
33.1045,5.77241
33.3293,4.17531
33.5541,3.33411
33.779,2.99012
34.0038,3.09647
34.2286,3.39274
34.4535,3.70879
34.6783,3.94567
34.9031,4.27004
35.128,3.79996
35.3528,4.38786
35.5777,4.70908
35.8025,6.09696
36.0273,7.28761
36.2522,9.71332
36.477,11.5373
36.7018,12.0633
36.9267,10.7637
37.1515,9.27025
37.3763,7.73064
37.6012,6.90179
37.826,6.37397
38.0508,6.85379
38.2757,7.1381
38.5005,8.46651
38.7253,9.68449
38.9502,10.7157
39.175,10.9194
39.3998,10.9554
39.6247,10.5199
39.8495,8.52949
40.0743,6.63701
40.2992,4.87021
40.524,3.63708
40.7489,2.29353
40.9737,1.8656
41.1985,1.26474
41.4234,1.05172
41.6482,0.754321
41.873,0.455869
42.0979,0.0174777
42.3227,0.274217
42.5475,-0.0909481
42.7724,0.0919071
42.9972,-0.047179
43.222,0.169697
43.4469,0.408092
43.6717,0.636757
43.8965,1.19771
44.1214,2.63955
44.3462,5.42062
44.571,10.0982
44.7959,13.2418
45.0207,14.1325
45.2456,14.2601
45.4704,12.4578
45.6952,10.2447
45.9201,7.84657
46.1449,6.93521
46.3697,7.00024
46.5946,6.77254
46.8194,6.2695
47.0442,5.92512
47.2691,5.52067
47.4939,5.41725
47.7187,3.64438
47.9436,1.75588
48.1684,0.746529
48.3932,0.392383
48.6181,0.224687
48.8429,0.0680939
49.0677,0.0180898
49.2926,0.064258
49.5174,-0.02554853
49.7423,-0.0259731
49.9671,0.444775
50.1919,0.671417
50.4168,1.41263
50.6416,1.93405
50.8664,1.45616
51.0913,0.787974
51.3161,0.816658
51.5409,0.264432
51.7658,0.0462254
51.9906,0.0917796
52.2154,0.22704
52.4403,0.158127
52.6651,0.0117738
52.8899,0.0449268
53.1148,-0.0601229
53.3396,0.161903
53.5644,0.0715728
53.7893,-0.0635299
54.0141,0.0435025
54.2389,0.159902
54.4638,0.264835
54.6886,0.0717078
54.9135,-0.0111946
55.1383,0.104007
55.3631,-0.0717763
55.588,0.173265
55.8128,0.217605
56.0376,-0.0707035
56.2625,0.252786
56.4873,0.46585
56.7121,0.521615
56.937,0.242996
57.1618,-0.008894468
57.3866,-0.0847517
57.6115,-0.0870061
57.8363,0.027913
58.0611,-0.12746
58.286,0.282295
58.5108,0.508708
58.7356,0.756641
58.9605,0.902829
59.1853,1.38477
59.4102,2.20768
59.635,3.23614
59.8598,3.92847
60.0847,3.85761
60.3095,2.9975
60.5343,2.63634
60.7592,2.0901
60.984,2.04107
61.2088,2.23405
61.4337,2.24196
61.6585,2.32867
61.8833,2.56191
62.1082,2.77499
62.333,3.06516
62.5578,2.21017
62.7827,1.8333
63.0075,1.67067
63.2323,1.85767
63.4572,2.4464
63.682,2.92124
63.9069,3.66412
64.1317,3.85734
64.3565,3.45924
64.5814,3.50973
64.8062,3.63036
65.031,4.09543
65.2559,4.68618
65.4807,5.65609
65.7055,6.50168
65.9304,8.40873
66.1552,11.8408
66.38,16.5547
66.6049,18.3649
66.8297,20.917
67.0545,24.1904
67.2794,25.8741
67.5042,19.9665
67.729,13.0318
67.9539,7.09086
68.1787,3.944
68.4036,2.32214
68.6284,1.36763
68.8532,0.84783
69.0781,0.523164
69.3029,0.390155
69.5277,0.181444
69.7526,-0.0665114
69.9774,-0.0296087
69.9978,-0.106315