Folder: project_psi/Carboncapture/XRD data (part 2)

File: raw_alumina.csv
2 theta,Intensity
5.0001,-0.0474184
5.22494,-0.105784
5.44977,0.0354737
5.6746,0.0905703
5.89944,0.0299915
6.12427,-0.0160542
6.34911,0.002780422
6.57394,-0.0109899
6.79878,-0.019545
7.02361,0.125322
7.24845,0.0930332
7.47328,0.0714531
7.69812,-0.0241355
7.92295,0.0163366
8.14779,-0.0770617
8.37262,0.0678739
8.59746,-0.0105048
8.82229,-0.002263481
9.04713,0.0313591
9.27196,-0.0242076
9.4968,-0.0367173
9.72163,-0.007588489
9.94647,0.104993
10.1713,0.0462386
10.3961,0.0193785
10.621,-0.0590591
10.8458,0.043431
11.0706,-0.00892156
11.2955,0.111245
11.5203,0.009833576
11.7451,0.0965663
11.97,0.23429
12.1948,0.317103
12.4197,0.270352
12.6445,0.297161
12.8693,0.246489
13.0942,0.217295
13.319,0.282495
13.5438,0.409104
13.7687,0.246425
13.9935,0.37085
14.2183,0.497654
14.4432,0.41677
14.668,0.29139
14.8928,0.223947
15.1177,0.216175
15.3425,0.21252
15.5673,0.431731
15.7922,0.366864
16.017,0.783544
16.2418,0.683507
16.4667,0.535503
16.6915,0.360366
16.9164,0.224067
17.1412,0.213412
17.366,0.111388
17.5909,0.24091
17.8157,0.593299
18.0405,0.906401
18.2654,1.39376
18.4902,0.803636
18.715,0.837421
18.9399,0.819766
19.1647,1.21595
19.3895,1.2916
19.6144,1.19428
19.8392,0.717396
20.064,0.946019
20.2889,0.911396
20.5137,0.363528
20.7385,0.234708
20.9634,0.208962
21.1882,0.1665
21.4131,-0.0489301
21.6379,-0.0194964
21.8627,0.255764
22.0876,-0.0534007
22.3124,0.304745
22.5372,-0.0882006
22.7621,-0.0160982
22.9869,-0.0787683
23.2117,-0.0244748
23.4366,0.0721295
23.6614,0.0294054
23.8862,-0.0680272
24.1111,0.159394
24.3359,0.0541255
24.5607,-0.08174861
24.7856,-0.002766506
25.0104,0.0571351
25.2352,0.01872258
25.4601,0.126788
25.6849,-0.0474895
25.9097,0.0983221
26.1346,0.135403
26.3594,0.192225
26.5843,0.122955
26.8091,0.399816
27.0339,0.0662091
27.2588,0.15165
27.4836,0.222109
27.7084,0.544949
27.9333,0.585447
28.1581,0.652631
28.3829,0.722195
28.6078,0.985111
28.8326,0.882352
29.0574,1.37225
29.2823,1.57981
29.5071,1.75329
29.7319,1.92915
29.9568,2.43725
30.1816,2.9703
30.4064,4.20017
30.6313,5.3543
30.8561,7.3945
31.081,9.45964
31.3058,9.10528
31.5306,8.57275
31.7555,7.6624
31.9803,7.4263
32.2051,8.02244
32.43,12.2737
32.6548,19.1264
32.8796,12.1342
33.1045,6.96205
33.3293,5.12044
33.5541,4.026
33.779,3.75859
34.0038,3.59426
34.2286,3.52605
34.4535,4.14426
34.6783,4.52353
34.9031,4.65691
35.128,4.95761
35.3528,4.84749
35.5777,5.34565
35.8025,5.84446
36.0273,7.59044
36.2522,9.82317
36.477,11.6225
36.7018,12.1673
36.9267,10.9662
37.1515,9.19979
37.3763,7.934
37.6012,6.56297
37.826,5.98424
38.0508,5.44782
38.2757,5.98843
38.5005,7.36476
38.7253,8.76431
38.9502,9.26345
39.175,9.00977
39.3998,9.2359
39.6247,8.95051
39.8495,7.05987
40.0743,5.25321
40.2992,3.93157
40.524,2.34842
40.7489,1.56452
40.9737,1.27433
41.1985,0.627134
41.4234,0.977115
41.6482,0.579476
41.873,0.198106
42.0979,0.409394
42.3227,0.133479
42.5475,0.196098
42.7724,0.291216
42.9972,0.0953126
43.222,0.301095
43.4469,0.474535
43.6717,0.714591
43.8965,1.398
44.1214,2.72789
44.3462,5.29626
44.571,9.7889
44.7959,13.52
45.0207,14.4514
45.2456,14.2377
45.4704,12.9968
45.6952,10.418
45.9201,7.90232
46.1449,7.14599
46.3697,6.78614
46.5946,6.61617
46.8194,6.30795
47.0442,5.59065
47.2691,5.64831
47.4939,5.37675
47.7187,3.88013
47.9436,2.28173
48.1684,0.906201
48.3932,0.298674
48.6181,0.20568
48.8429,0.205344
49.0677,0.145892
49.2926,0.147421
49.5174,0.00800202
49.7423,0.0983942
49.9671,0.340472
50.1919,1.12312
50.4168,1.46024
50.6416,1.94384
50.8664,1.67981
51.0913,1.2133
51.3161,0.785634
51.5409,0.38986
51.7658,0.102369
51.9906,0.0915641
52.2154,0.320986
52.4403,0.129178
52.6651,0.222736
52.8899,0.0495768
53.1148,0.267687
53.3396,-0.0777949
53.5644,0.0600063
53.7893,0.0146417
54.0141,0.0276556
54.2389,0.04478586
54.4638,-0.0919536
54.6886,0.0966039
54.9135,-0.03245533
55.1383,-0.0628522
55.3631,0.009220866
55.588,0.0159659
55.8128,-0.0165754
56.0376,0.284861
56.2625,0.326524
56.4873,0.49036
56.7121,0.484701
56.937,0.260936
57.1618,0.293023
57.3866,0.204227
57.6115,0.140381
57.8363,0.0632215
58.0611,0.205249
58.286,0.226392
58.5108,0.644013
58.7356,0.715056
58.9605,1.02633
59.1853,1.33998
59.4102,2.06573
59.635,3.33032
59.8598,3.75007
60.0847,3.6479
60.3095,2.95261
60.5343,2.37256
60.7592,2.03621
60.984,2.06855
61.2088,2.02168
61.4337,2.05011
61.6585,2.19897
61.8833,2.26687
62.1082,2.5889
62.333,2.57129
62.5578,2.38245
62.7827,1.73419
63.0075,1.65254
63.2323,1.50209
63.4572,2.19082
63.682,2.77951
63.9069,3.26468
64.1317,3.31819
64.3565,3.0043
64.5814,3.46535
64.8062,3.0208
65.031,3.60814
65.2559,4.23433
65.4807,4.85768
65.7055,6.00945
65.9304,8.06639
66.1552,11.1396
66.38,15.5173
66.6049,17.2167
66.8297,19.0905
67.0545,22.734
67.2794,24.1194
67.5042,19.1531
67.729,12.1041
67.9539,6.41681
68.1787,3.39164
68.4036,2.05462
68.6284,1.16442
68.8532,0.530074
69.0781,0.465818
69.3029,0.193872
69.5277,-0.14861
69.7526,-0.191837
69.9774,-0.193573
69.9978,-0.110007